accx,accy,accz
-0.0736,0.8644,-0.2016
-0.0736,0.8644,-0.2016
-0.001,0.8087,-0.2021
0.1179,0.621,-0.2004
0.1179,0.5868,-0.1249
0.0663,0.7786,-0.0599
0.0255,1.0608,0.0013
-0.0081,1.1861,0.0306
-0.035,1.3005,0.0303
-0.0911,1.1129,-0.0069
-0.0934,0.9714,-0.0067
-0.0916,0.9149,-0.0075
-0.0929,0.8905,0.0206
-0.0911,0.8262,0.0222
-0.0604,0.893,0.109
-0.0289,0.9208,0.1743
0.0106,0.9467,0.1747
0.0399,0.9443,0.1771
0.0136,0.9191,0.143
0.0131,0.9196,0.1425
-0.0135,0.9457,0.1428
-0.0135,0.9802,0.1428
-0.0117,0.9816,0.142
-0.0364,1.0112,0.1102
-0.0068,1.0109,0.1105
0.0238,1.0388,0.1119
0.0221,1.1011,0.1875
-0.0068,1.129,0.2123
-0.1183,1.128,0.2815
-0.1481,1.2785,0.281
-0.0911,1.3767,0.1347
-0.0911,1.3767,0.1347
0.0064,1.0997,-0.0991
0.0331,0.7976,-0.188
0.0011,0.6503,-0.1906
-0.0823,0.418,-0.0778
-0.1967,0.4239,0.134
-0.2227,0.7391,0.1324
-0.1864,1.2162,-0.0367
-0.0245,1.6142,-0.0387
0.038,1.5087,-0.0348
-0.1234,1.1642,-0.0375
-0.1871,1.0095,-0.1086
-0.1021,0.7479,-0.0287
-0.0626,0.7121,0.2824
-0.0626,0.7757,0.2824
-0.1564,0.9734,0.1312
-0.1564,0.9734,0.1312
-0.1828,0.9729,0.1317
-0.1835,0.9736,0.131
-0.1835,0.9471,0.131
-0.1579,0.9159,0.1691
-0.1591,0.9171,0.1669
-0.1332,0.942,0.1684
-0.1327,0.9424,0.1689
-0.1324,0.942,0.1691
-0.1337,0.9975,0.1679
-0.133,0.9968,0.1687
-0.1335,1.0212,0.1931
-0.1324,1.0212,0.1941
-0.1056,1.0498,0.1941
-0.078,1.0515,0.1924
-0.079,1.05,0.1938
-0.0802,1.1085,0.1926
-0.0797,1.2455,0.2568
-0.2157,1.3503,0.2854
-0.2686,1.1363,0.328
-0.1784,1.0279,0.186
-0.1226,0.975,0.0665
0.0077,0.8665,-0.1738
0.1418,0.6745,-0.2808
0.1425,0.5881,-0.2265
0.0663,0.7024,-0.066
-0.0152,0.9743,0.0269
-0.1234,1.2675,0.0541
-0.0911,1.3181,0.0941
-0.0911,1.1605,0.0613
-0.0923,1.0666,-0.0052
-0.1168,0.9091,-0.0067
-0.1174,0.8123,0.0401
-0.0904,0.8143,0.0939
-0.0636,0.8893,0.161
-0.0643,0.8895,0.1608
-0.0391,0.948,0.1591
-0.0399,0.9482,0.1608
0.0136,0.9484,0.1298
0.015,0.9494,0.1288
0.0136,0.9484,0.1633
0.0124,0.9496,0.1889
-0.0169,0.9804,0.1872
-0.0173,0.9809,0.1493
-0.0169,1.0095,0.1186
-0.0173,1.0417,0.1163
-0.0176,1.0696,0.1186
-0.048,1.0706,0.1945
-0.1125,1.0973,0.3145
-0.1117,1.2199,0.3152
-0.1359,1.3181,0.3155
-0.1351,1.3997,0.3162
-0.1065,1.3195,0.2072
-0.0152,0.8944,-0.1217
-0.0152,0.8944,-0.1217
-0.0545,0.6152,-0.1484
-0.0846,0.5273,-0.1152
-0.1132,0.4652,0.0122
-0.1696,0.8812,0.0916
-0.196,1.2902,0.0452
-0.1938,1.481,-0.0208
-0.1645,1.4353,-0.0675
-0.1302,1.1656,-0.1564
-0.0389,0.7671,0.1009
-0.0389,0.7671,0.1009
-0.0389,0.7671,0.2102
-0.1149,0.8327,0.2082
-0.1818,0.8898,0.178
-0.2074,0.924,0.1477
-0.2069,0.9235,0.121
-0.1779,0.9238,0.0929
-0.1512,0.8966,0.0926
-0.152,0.8966,0.0944
-0.1528,0.9296,0.1508
-0.1515,0.9601,0.1496
-0.1523,0.9585,0.1513
-0.1524,0.9587,0.1261
-0.1777,1.0168,0.0916
-0.2062,1.1016,0.198
-0.1766,1.1351,0.1982
-0.0692,1.1351,0.1982
0.059,1.1074,0.1687
-0.0274,1.1634,0.3201
-0.0274,1.1634,0.3201
-0.0274,1.1634,0.3201
-0.1791,1.2245,0.3199
-0.325,1.1588,0.1626
-0.1754,1.0249,-0.0397
-0.1754,1.0249,-0.0397
0.0348,0.7735,-0.2379
0.0614,0.6892,-0.2381
0.1008,0.6745,-0.0038
-0.098,1.2001,0.0203
-0.098,1.2001,0.0203
-0.1312,1.2821,0.0213
-0.0582,1.31,-0.0038
0.0072,1.0586,-0.0812
-0.0934,0.857,0.0225
-0.0934,0.857,0.0225
-0.0946,0.8209,0.1305
-0.0941,0.794,0.131
-0.0377,0.8886,0.1312
0.0201,1.0097,0.0956
0.0201,1.0097,0.0956
0.0204,1.0373,0.0958
0.0189,1.0044,0.0944
0.0185,0.9145,0.1256
-0.0391,0.9184,0.1217
-0.0391,0.9184,0.1217
-0.0682,0.9467,0.1513
-0.069,0.9809,0.153
-0.0061,1.0622,0.1244
-0.0079,1.0615,0.1647
-0.0079,1.0615,0.1647
-0.0066,1.0627,0.1635
-0.0403,1.0622,0.164
-0.0391,1.0315,0.1628
-0.0401,0.9997,0.1913
-0.1044,1.1429,0.3431
-0.1044,1.1429,0.3431
-0.1388,1.2638,0.3429
-0.0208,1.4705,0.2197
-0.0259,1.0249,-0.5095
-0.0259,1.0249,-0.5095
-0.0685,0.8893,-0.5114
-0.1535,0.6672,-0.5109
-0.2092,0.7684,0.2759
-0.0508,1.1348,0.1566
-0.0508,1.1348,0.1566
0.0006,1.1341,-0.1379
-0.1263,1.0073,-0.2014
-0.1722,0.9369,-0.2009
-0.1351,0.9086,-0.025
-0.0531,0.881,0.0783
-0.0545,0.88,0.078
-0.0911,0.9049,0.078
-0.1244,0.9064,0.1058
-0.1579,0.9056,0.1065
-0.1887,0.9047,0.1076
-0.1884,0.9068,0.1053
-0.1887,0.9047,0.1076
-0.163,0.9352,0.1063
-0.1617,0.934,0.1347
-0.1613,0.9616,0.1328
-0.1366,0.9613,0.1579
-0.1368,0.9616,0.1577
-0.1368,0.9616,0.1577
-0.1109,0.9888,0.1591
-0.1102,1.0132,0.1573
-0.0799,1.0452,0.1584
-0.1095,1.0454,0.1582
-0.1102,1.074,0.1573
-0.034,1.1072,0.1828
-0.0003,1.1912,0.1823
0.0006,1.2646,0.2131
-0.1762,1.3767,0.2996
-0.2145,1.2448,0.3296
-0.162,1.0645,0.1969
0.1169,0.5499,-0.3355
0.1169,0.5499,-0.3355
0.1189,0.4656,-0.2947
-0.0215,0.6804,-0.0844
-0.1283,1.3628,0.1288
-0.127,1.3926,0.1268
-0.1016,1.2499,0.1279
-0.0399,1.0696,-0.0448
-0.0415,1.0021,-0.1039
-0.0904,0.8959,-0.1039
-0.1174,0.7747,0.1889
-0.1174,0.7747,0.1889
-0.0552,0.8001,0.2224
-0.0225,0.8651,0.1845
0.0094,0.9369,0.0629
0.0106,0.998,0.0362
0.0106,0.998,0.117
0.0092,0.997,0.1743
-0.0184,0.9685,0.2146
-0.0743,0.9682,0.2148
-0.0746,0.9685,0.2146
-0.0758,1.0379,0.109
-0.0753,1.0673,0.1076
-0.0511,1.0676,0.1073
-0.0506,1.0671,0.1759
-0.0222,1.0425,0.2453
-0.0574,1.041,0.2468
-0.0594,1.1781,0.2473
-0.0597,1.3298,0.247
-0.0574,1.5218,0.2468
-0.0511,1.255,0.0841
-0.024,1.0461,-0.247
-0.0601,0.7911,-0.284
-0.1153,0.5623,-0.2097
-0.1435,0.5343,-0.0184
-0.1146,0.816,0.0171
-0.0435,1.1532,0.0174
-0.0443,1.3284,-0.0257
-0.1754,1.2315,-0.0543
-0.2121,1.0183,-0.1247
-0.1468,0.8607,-0.1254
-0.0645,0.8172,0.0958
-0.0369,0.8189,0.1626
-0.0638,0.8563,0.1948
-0.1286,0.9166,0.1403
-0.1298,0.9179,0.1053
-0.1298,0.9179,0.1053
-0.129,0.9171,0.1061
-0.1295,0.9176,0.1312
-0.1288,0.9169,0.1319
-0.1021,0.89,0.1317
-0.1029,0.8922,0.131
-0.1322,0.8922,0.131
-0.1342,0.9773,0.1315
-0.098,1.1334,0.131
-0.0985,1.1314,0.1009
-0.0706,1.1329,0.0709
-0.0408,1.1045,0.0697
-0.0406,1.1043,0.1081
-0.1044,1.2257,0.2405
-0.2018,1.4038,0.2942
-0.2392,1.3774,0.2935
-0.2385,1.3174,0.2942
-0.1684,1.173,0.0218
-0.0318,0.857,-0.1582
-0.0024,0.7823,-0.0983
0.0309,0.6415,0.0057
0.0297,0.5695,0.0066
0.0292,0.5968,-0.0529
0.0292,0.9678,-0.0986
0.0292,1.1099,-0.0986
0.0311,1.3027,-0.0991
0.0309,1.3005,-0.028
-0.034,1.2096,-0.0297
-0.0921,0.9706,-0.0035
-0.0926,0.8423,0.0599
-0.0914,0.8057,0.0907
-0.0633,0.8074,0.089
-0.0298,0.838,0.0907
-0.0059,0.8996,0.0902
-0.0047,0.932,0.1154
-0.004,0.9313,0.1161
-0.0059,0.9308,0.1166
-0.0054,0.9303,0.117
-0.0054,0.9303,0.117
-0.0061,0.931,0.1163
-0.0313,0.9567,0.1156
-0.0073,0.9572,0.143
0.0201,1.0117,0.1461
0.0201,1.0117,0.1461
-0.0108,1.0371,0.2102
-0.0382,1.0654,0.2092
-0.0926,1.0081,0.2085
-0.1256,1.0952,0.2097
-0.1256,1.0952,0.2097
-0.1246,1.3254,0.2426
-0.0985,1.4126,0.2444
-0.0161,1.1723,0.1223
-0.045,1.0847,-0.1091
-0.045,1.0847,-0.1091
-0.1012,0.9618,-0.1091
-0.13,0.761,-0.1086
-0.1577,0.5814,-0.1093
-0.1833,0.893,-0.0108
-0.1508,1.0505,-0.0101
-0.0809,1.2052,-0.0111
-0.0384,1.3501,-0.0101
-0.1174,1.033,-0.1611
-0.1165,0.8798,-0.1342
-0.1165,0.8798,-0.1342
-0.0843,0.8805,0.0643
-0.0853,0.8558,0.0912
-0.1361,0.8553,0.1291
-0.1647,0.8824,0.1298
-0.1647,0.8824,0.1298
-0.1915,0.8824,0.0727
-0.1915,0.911,0.0462
-0.1926,0.912,0.0452
-0.1933,0.9128,0.1068
-0.1376,0.9424,0.1366
-0.1376,0.9424,0.1366
-0.1088,0.9773,0.1361
-0.1093,1.0085,0.1356
-0.1371,1.0095,0.1626
-0.1371,1.0095,0.1626
-0.1368,1.0093,0.1628
-0.1354,1.0833,0.1642
-0.0787,1.1766,0.1647
-0.0501,1.1773,0.2248
-0.0518,1.2785,0.2248
-0.181,1.4309,0.2227
-0.2504,1.3078,0.1992
-0.1461,1.1495,-0.0367
-0.0149,0.9179,-0.2625
0.0578,0.5888,-0.3071
0.0898,0.5273,-0.2507
0.0597,0.5632,-0.058
-0.0552,0.7838,0.0061
-0.1454,1.0871,0.0343
-0.048,1.2315,-0.058
-0.048,1.2315,-0.058
-0.0135,1.1532,-0.1555
-0.0142,0.9963,-0.1569
-0.0545,0.8702,-0.0558
-0.1068,0.8055,0.1635
-0.106,0.8467,0.1642
-0.0734,0.9164,0.1628
-0.0462,0.9182,0.1249
0.0084,0.945,0.0856
0.0064,0.9445,0.086
0.0069,0.9464,0.142
0.0069,0.9208,0.1398
-0.0198,0.9208,0.1398
-0.0205,0.9191,0.1415
-0.0198,0.9516,0.1398
-0.0208,0.9839,0.1412
-0.0201,1.041,0.1156
-0.0191,1.0689,0.1142
-0.0501,1.0696,0.1801
-0.1044,1.0701,0.2368
-0.106,1.0444,0.2376
-0.1063,1.0447,0.2372
-0.106,1.0703,0.2376
-0.0765,1.3319,0.2979
-0.0778,1.4728,0.2966
-0.0424,1.2602,0.0225
-0.0161,1.0396,-0.3272
-0.0494,0.9487,-0.3262
-0.0992,0.7479,-0.2412
-0.1351,0.5785,0.1065
-0.1351,0.5785,0.1065
-0.1354,0.8959,0.1063
-0.1361,1.2271,-0.069
-0.1952,1.3212,-0.1694
-0.2258,1.2037,-0.1699
-0.1945,1.1158,-0.1704
-0.0638,0.9068,0.0042
0.015,0.8798,0.109
0.0124,0.88,0.1088
-0.0934,0.9047,0.1105
-0.1579,0.9056,0.1095
-0.1598,0.9052,0.11
-0.1867,0.9052,0.11
-0.1884,0.9068,0.1083
-0.1584,0.9296,0.1412
-0.1813,0.9296,0.1412
-0.1833,0.9315,0.1393
-0.1835,0.9318,0.1391
-0.1198,0.9315,0.1393
-0.0848,0.9662,0.14
-0.0846,1.0168,0.1403
-0.1141,1.0517,0.14
-0.1512,1.0523,0.1645
-0.152,1.0505,0.1662
-0.1275,1.0505,0.1662
-0.1,1.0523,0.1645
-0.0721,1.0843,0.1911
-0.0387,1.1194,0.2153
-0.0384,1.1502,0.2155
-0.2031,1.211,0.2966
-0.2292,1.1766,0.2974
-0.1952,1.1299,0.271
-0.1117,1.0561,0.024
-0.0054,0.9443,-0.283
0.1366,0.7808,-0.3404
0.1376,0.7119,-0.2067
0.0436,0.7845,-0.0236
-0.0171,0.8702,0.0401
-0.1036,1.044,0.0396
-0.0669,1.1316,0.0037
-0.0369,1.1033,-0.0301
-0.0391,1.0715,-0.0585
-0.0753,0.9911,-0.0169
-0.1019,0.89,0.0704
-0.0765,0.8565,0.1344
-0.0506,0.8576,0.1335
-0.0492,0.8812,0.1324
-0.0487,0.913,0.133
-0.0191,0.9391,0.1332
-0.0191,0.9391,0.1332
-0.0176,0.9377,0.1347
-0.0181,0.9382,0.1342
-0.0181,0.9382,0.1342
-0.0186,0.9387,0.1065
-0.0171,0.9726,0.1056
-0.0181,0.999,0.107
-0.0173,1.0542,0.1053
-0.0181,1.0547,0.1408
-0.0841,1.0547,0.1708
-0.1114,1.0552,0.1703
-0.1109,1.0547,0.1708
-0.1105,1.0791,0.2416
-0.1121,1.1949,0.3084
-0.1109,1.3296,0.3409
-0.0282,1.2154,0.2381
-0.0003,1.1472,0.1281
0.049,1.1085,-0.1804
-0.0164,1.0818,-0.2491
-0.2363,0.6415,-0.0462
-0.2363,0.6415,-0.0462
-0.2363,0.676,-0.0474
-0.1789,0.9985,-0.0206
-0.0802,1.1876,-0.022
-0.0371,1.2126,-0.0968
-0.0794,1.1803,-0.1261
-0.1528,1.0666,-0.1269
-0.1794,0.8674,0.0071
-0.1528,0.8681,0.1457
-0.1528,0.8681,0.1457
-0.1505,0.8683,0.1454
-0.1512,0.869,0.1447
-0.1762,0.9215,0.0511
-0.2031,0.9523,0.0511
-0.2031,0.9523,0.0511
-0.2033,0.9523,0.1186
-0.1754,0.9538,0.117
-0.1488,0.9541,0.1168
-0.1161,0.9274,0.1428
-0.1161,0.9274,0.1428
-0.1161,0.9274,0.1428
-0.117,0.9541,0.1417
-0.1168,0.9802,0.1743
-0.1165,0.9799,0.2046
-0.1165,0.9799,0.2046
-0.1163,1.0065,0.2048
-0.0919,1.0076,0.2048
-0.0923,1.0058,0.2475
-0.0921,1.0571,0.3296
-0.0921,1.0571,0.3296
-0.1153,1.1714,0.3296
-0.2129,1.5211,0.3274
-0.2766,1.1583,0.0467
0.1909,0.709,-0.4638
0.1909,0.709,-0.4638
0.1916,0.6342,-0.4631
-0.0391,0.7354,0.0958
-0.2004,0.9765,0.1445
-0.2663,1.2117,0.0783
-0.1,1.1861,-0.0318
-0.1,1.1861,-0.0318
-0.0308,1.0403,-0.0868
-0.1161,0.9098,-0.0367
-0.1524,0.8802,0.1545
-0.1524,0.8802,0.1545
-0.1242,0.9047,0.153
-0.0384,0.9303,0.1533
-0.0077,0.9574,0.0525
-0.0061,0.956,0.0541
-0.0061,0.9296,0.0944
-0.0318,0.9315,0.1281
-0.032,0.9318,0.1801
-0.032,0.9318,0.1801
-0.0326,0.9298,0.1073
-0.0326,0.9298,0.1073
-0.0333,0.9562,0.1065
