accx,accy,accz
0.0055,0.8238,-0.1259
0.0055,0.9213,-0.1555
0.0036,0.948,-0.1562
0.0057,1.0058,-0.1564
0.0387,1.0056,-0.1552
0.0702,0.9508,-0.1555
0.0707,0.9504,-0.155
0.0705,0.9506,-0.1266
0.07,0.978,-0.0558
0.0697,1.0512,-0.0539
0.0402,1.1605,-0.0541
0.0402,1.2431,-0.0858
0.177,1.398,-0.1474
0.2078,1.453,-0.1723
0.2083,1.5387,-0.2361
0.0626,1.5629,-0.2684
-0.1016,1.1429,-0.6292
-0.1014,1.0212,-0.629
-0.0685,0.7947,-0.5615
-0.034,0.7002,-0.475
-0.0024,0.6398,-0.3255
-0.0391,0.7757,-0.2901
-0.1682,1.0447,-0.4273
-0.1373,1.0952,-0.5857
-0.1073,1.0969,-0.5874
-0.1083,1.0281,-0.5859
-0.1444,0.9494,-0.5491
-0.1938,0.86,-0.4487
-0.1952,0.8616,-0.4076
-0.1938,0.8602,-0.3786
-0.1945,0.8609,-0.3131
-0.1366,0.8616,-0.2771
-0.048,0.8057,-0.2481
-0.0492,0.808,-0.2493
-0.0235,0.7759,-0.2144
-0.0252,0.7503,-0.2136
-0.0233,0.7507,-0.1892
-0.0494,0.75,-0.1606
-0.0516,0.775,-0.135
-0.0773,0.7759,-0.1338
-0.1065,0.7759,-0.1338
-0.1388,0.7764,-0.1342
-0.1386,0.8387,-0.1035
-0.1659,0.8726,-0.1051
-0.1652,0.8719,-0.1044
-0.089,0.9259,-0.1369
-0.0902,0.9569,-0.1382
-0.0895,0.9839,-0.1373
-0.1161,1.0168,-0.1122
-0.1168,1.0608,-0.113
-0.1174,1.1229,-0.0856
-0.1784,1.2166,-0.0534
-0.2546,1.3452,-0.0514
-0.2876,1.4434,-0.0527
-0.1945,1.5739,-0.4669
-0.1945,1.5739,-0.4669
-0.1622,1.3224,-0.5063
-0.078,1.0593,-0.5076
-0.0159,0.8556,-0.4443
0.0167,0.7014,-0.4103
-0.0117,0.8497,-0.4464
-0.0117,0.8497,-0.4464
-0.0375,0.9364,-0.4716
-0.0643,0.9992,-0.4716
0.0516,0.966,-0.381
0.0847,0.9303,-0.3483
0.0847,0.9303,-0.3483
0.0532,0.8709,-0.3241
0.0269,0.8343,-0.294
0.029,0.7442,-0.2945
0.056,0.7437,-0.2943
0.056,0.7437,-0.2943
0.0551,0.7422,-0.2928
0.056,0.7437,-0.2684
-0.0369,0.7713,-0.209
-0.0626,0.7994,-0.1778
-0.0626,0.7994,-0.1778
-0.0636,0.8004,-0.1787
-0.0387,0.7999,-0.1526
0.049,0.8278,-0.1503
0.049,0.8278,-0.1503
0.081,0.8614,-0.1501
0.0807,0.8879,-0.1503
0.0807,0.9406,-0.1503
0.081,1.0319,-0.1501
0.0516,1.0319,-0.1501
0.0516,1.0319,-0.1501
0.0516,1.0319,-0.1501
0.0516,1.0319,-0.1501
0.093,1.1964,-0.1254
0.1806,1.321,-0.1257
0.1811,1.4016,-0.1252
0.1809,1.5042,-0.2032
0.1389,1.5392,-0.2617
-0.0061,1.2953,-0.4582
-0.062,1.0396,-0.5488
-0.0948,0.9186,-0.5498
-0.1263,0.6943,-0.5496
-0.185,0.6511,-0.5496
-0.1828,0.8372,-0.5498
-0.1535,1.0505,-0.5498
-0.089,1.1537,-0.5205
-0.0594,1.1791,-0.5207
-0.058,1.118,-0.5217
-0.0823,0.923,-0.4967
-0.1144,0.8241,-0.4406
-0.1454,0.7654,-0.2903
-0.1454,0.7654,-0.2903
-0.1452,0.7652,-0.2908
-0.1466,0.7931,-0.2922
-0.0934,0.7911,-0.2903
-0.0934,0.7911,-0.2903
-0.0948,0.7926,-0.2265
-0.0653,0.8172,-0.2016
-0.0641,0.816,-0.2016
-0.0401,0.8165,-0.1743
-0.0641,0.816,-0.1482
-0.066,0.818,-0.1203
-0.0978,0.818,-0.1223
-0.1205,0.8162,-0.1459
-0.1214,0.846,-0.1471
-0.1205,0.8463,-0.1462
-0.1221,0.8724,-0.1479
-0.1205,0.8726,-0.1462
-0.1461,0.9289,-0.1474
-0.1456,0.9284,-0.1203
-0.1195,0.9548,-0.122
-0.1181,1.0112,-0.1205
-0.1432,1.0908,-0.1212
-0.144,1.1781,-0.122
-0.171,1.2375,-0.1223
-0.2367,1.4837,-0.097
-0.2363,1.5527,-0.0966
-0.2094,1.5753,-0.1408
-0.1769,1.4368,-0.3424
-0.1468,1.2338,-0.4589
-0.0846,1.0132,-0.487
-0.0545,0.9179,-0.4862
-0.0032,0.7507,-0.4862
-0.001,0.7794,-0.4604
0.0612,0.8819,-0.4597
0.0055,0.9799,-0.4352
-0.0242,0.9804,-0.4357
-0.0225,0.9787,-0.434
0.0055,0.9457,-0.4352
0.0336,0.8856,-0.393
0.0069,0.86,-0.3167
0.0048,0.8278,-0.282
0.0048,0.7996,-0.282
0.0064,0.7624,-0.2803
0.0329,0.7354,-0.2784
0.0597,0.7337,-0.2784
0.0355,0.7334,-0.2193
0.0362,0.7351,-0.219
0.0353,0.7593,-0.189
0.0362,0.7908,-0.1655
0.0348,0.7899,-0.1645
0.0353,0.7894,-0.164
0.0338,0.8201,-0.1655
0.0084,0.8211,-0.1664
0.0358,0.846,-0.1636
0.0365,0.9137,-0.1652
0.0375,0.9391,-0.1643
0.0367,0.9669,-0.165
0.0378,0.966,-0.164
0.0378,0.9975,-0.164
0.0365,0.9988,-0.1389
0.0367,0.9985,-0.1122
0.0358,1.0242,-0.1107
0.0641,1.1319,-0.1117
0.0651,1.2476,-0.1107
0.0947,1.3063,-0.113
0.1778,1.5424,-0.2479
0.103,1.6579,-0.3311
0.1024,1.546,-0.3565
0.1042,1.2572,-0.3893
-0.013,0.8739,-0.4474
-0.0697,0.6562,-0.448
-0.0955,0.6217,-0.4494
-0.13,0.6298,-0.4471
-0.1617,0.8234,-0.475
-0.162,1.0286,-0.5025
-0.1622,1.1316,-0.477
-0.1371,1.1334,-0.448
-0.0743,1.0635,-0.4213
-0.0765,0.9746,-0.421
-0.1027,0.8963,-0.4492
-0.1034,0.8323,-0.4474
-0.1286,0.8331,-0.3858
-0.1295,0.8341,-0.3099
-0.1561,0.8339,-0.2459
-0.1549,0.8327,-0.2447
-0.1251,0.8028,-0.2193
-0.0946,0.804,-0.2205
-0.0264,0.8043,-0.1951
0.006,0.8036,-0.1943
0.0026,0.8045,-0.1953
0.0026,0.8045,-0.166
-0.0655,0.8043,-0.1357
-0.0948,0.8043,-0.1357
-0.1559,0.8043,-0.11
-0.185,0.804,-0.1098
-0.1835,0.8299,-0.1107
-0.154,0.8593,-0.1384
-0.12,0.9252,-0.1386
-0.0948,0.9545,-0.1379
-0.0435,1.0117,-0.1115
-0.0773,1.0764,-0.111
-0.1044,1.1434,-0.1112
-0.1391,1.2215,-0.1117
-0.2077,1.3298,-0.1119
-0.2483,1.5504,-0.111
-0.2483,1.5965,-0.111
-0.2178,1.557,-0.1408
-0.1476,1.3701,-0.3241
-0.119,1.1099,-0.4567
-0.0193,0.8189,-0.5339
0.0246,0.7911,-0.5314
0.0788,0.7532,-0.531
0.1071,0.8423,-0.5058
0.0675,0.9494,-0.5036
-0.0277,0.9783,-0.506
-0.0271,0.9552,-0.4669
-0.0262,0.9279,-0.4318
0.0008,0.8651,-0.3541
0.0013,0.8656,-0.3201
0.0008,0.8404,-0.2584
0.0015,0.8397,-0.2576
0.0318,0.8387,-0.2566
0.0568,0.8383,-0.2561
0.057,0.8087,-0.2559
0.0572,0.8085,-0.2556
0.057,0.7823,-0.2002
-0.001,0.7593,-0.1435
-0.0023,0.7605,-0.1447
-0.0019,0.7859,-0.1445
-0.0028,0.8255,-0.1452
-0.001,0.8497,-0.1435
0.0265,0.9142,-0.1428
0.0282,0.9415,-0.141
0.0519,0.9424,-0.1418
0.0529,0.9413,-0.1408
0.0523,0.9418,-0.1413
0.0536,0.9431,-0.1177
0.0516,0.9426,-0.0914
0.0516,0.9426,-0.0914
0.0536,0.9431,-0.0919
0.0854,0.9692,-0.0919
0.0849,1.0029,-0.0675
0.0851,1.1239,-0.0672
0.2107,1.351,-0.0663
0.2107,1.351,-0.0663
0.1718,1.5122,-0.1841
0.0495,1.6107,-0.3893
-0.0098,1.4588,-0.4552
-0.0582,1.3408,-0.4831
-0.0911,1.0908,-0.4834
-0.0926,0.9729,-0.4848
-0.0907,0.6415,-0.3842
-0.0926,0.8028,-0.3837
-0.0926,0.8028,-0.3837
-0.0916,0.9985,-0.4443
-0.0641,1.0974,-0.4713
-0.0645,1.098,-0.4967
-0.1242,0.934,-0.4978
-0.1242,0.934,-0.4978
-0.1813,0.8637,-0.4112
-0.2113,0.7911,-0.3365
-0.1828,0.7661,-0.2493
-0.1493,0.7668,-0.2251
-0.1095,0.7947,-0.2244
-0.1117,0.8189,-0.198
-0.0536,0.8206,-0.1673
0.0057,0.847,-0.1682
0.0055,0.8721,-0.1685
0.0055,0.8721,-0.1685
0.0055,0.8721,-0.1685
-0.0851,0.8189,-0.1342
-0.1447,0.7918,-0.1086
-0.1747,0.7926,-0.1093
-0.1999,0.764,-0.0851
-0.1999,0.7999,-0.0595
-0.1696,0.8327,-0.0585
-0.1432,0.8991,-0.059
-0.1117,0.952,-0.0592
-0.1125,1.0481,-0.0599
-0.1125,1.0481,-0.0599
-0.1139,1.0838,-0.059
-0.1725,1.2932,-0.0912
-0.2048,1.3517,-0.0917
-0.273,1.4647,-0.0914
-0.2749,1.5776,-0.0411
-0.2744,1.6369,-0.0414
-0.237,1.4001,-0.2691
-0.1589,1.0989,-0.5205
-0.1249,0.8739,-0.5571
-0.1246,0.7933,-0.5568
0.0013,0.7351,-0.4851
0.0788,0.838,-0.4834
0.047,0.9471,-0.4245
-0.0264,0.9758,-0.4259
-0.0264,0.9758,-0.4259
0.0106,0.9753,-0.3621
0.0737,0.9066,-0.3362
0.0734,0.8416,-0.3064
0.0744,0.8399,-0.3048
0.0724,0.8116,-0.2698
0.0742,0.7815,-0.2442
0.0478,0.7554,-0.2437
0.0199,0.7564,-0.2447
-0.0059,0.7579,-0.2461
-0.0306,0.7581,-0.217
-0.0289,0.7933,-0.1885
0.0011,0.8255,-0.1628
0.0043,0.8248,-0.1628
0.0297,0.8238,-0.1618
0.0309,0.8226,-0.1606
0.0891,0.8231,-0.1611
0.091,0.8236,-0.1615
0.0326,0.893,-0.1613
0.0011,0.9194,-0.1636
0,0.9213,-0.1648
-0.001,0.9883,-0.1633
0.0272,1.0158,-0.1618
0.0847,1.0535,-0.1606
0.0854,1.0552,-0.1902
0.1098,1.1194,-0.1902
0.1482,1.1832,-0.1584
0.148,1.2228,-0.1177
0.148,1.3217,-0.0839
0.1164,1.4346,-0.1738
0.0162,1.437,-0.3996
-0.0413,1.2858,-0.5468
-0.0662,1.1561,-0.5491
-0.1622,0.7661,-0.5473
-0.2229,0.654,-0.5153
-0.2519,0.7332,-0.5175
-0.2172,0.9084,-0.517
-0.119,1.0505,-0.5459
-0.0274,1.129,-0.5447
0.0495,1.0875,-0.4687
0.0201,0.9958,-0.445
-0.0112,0.923,-0.4459
-0.0846,0.8527,-0.4459
-0.1637,0.8224,-0.3849
-0.2663,0.8224,-0.3311
-0.2656,0.8216,-0.3304
-0.267,0.8206,-0.3045
-0.2246,0.8221,-0.306
-0.1212,0.8213,-0.2796
-0.0589,0.794,-0.2544
-0.0262,0.7952,-0.2227
0.0018,0.794,-0.1936
0.0011,0.7947,-0.1943
-0.032,0.8211,-0.168
-0.0606,0.8519,-0.1673
-0.089,0.8788,-0.1662
-0.1239,0.8795,-0.1406
-0.1542,0.8805,-0.1415
-0.153,0.8793,-0.1403
-0.1535,0.8798,-0.1152
-0.1545,0.8783,-0.0858
-0.1542,0.8805,-0.0881
-0.1275,0.8783,-0.0858
-0.1014,0.9091,-0.0865
-0.1016,0.9678,-0.0868
-0.1032,0.9678,-0.0858
-0.1029,1.0021,-0.0881
-0.1344,1.0019,-0.0878
-0.1359,1.0288,-0.059
-0.1347,1.0843,-0.0338
-0.2597,1.1241,-0.0318
-0.3162,1.2902,-0.0712
-0.229,1.4625,-0.0724
-0.172,1.463,-0.1662
-0.172,1.463,-0.1662
-0.1428,1.4097,-0.2197
-0.1428,1.2191,-0.2593
-0.0492,0.8211,-0.4743
-0.0225,0.7573,-0.5549
-0.0225,0.7573,-0.5549
0.0036,0.8702,-0.5835
0.0031,0.942,-0.5337
-0.0665,1.03,-0.4157
-0.0992,1.0952,-0.369
-0.0706,1.0293,-0.3697
0,0.9457,-0.37
0.0311,0.904,-0.3409
0.0311,0.8416,-0.3145
0.0585,0.7801,-0.2766
0.0572,0.7784,-0.2439
0.0583,0.7798,-0.2454
0.0581,0.7801,-0.2456
0.025,0.7789,-0.2444
0.0257,0.8067,-0.2437
0,0.8106,-0.1855
0.0008,0.8096,-0.1865
-0.0245,0.8106,-0.1626
-0.0264,0.8101,-0.1298
0.0026,0.8104,-0.1315
0.0309,0.8674,-0.1277
0.0309,0.8951,-0.1277
0.0299,0.9222,-0.1286
0.0309,0.9201,-0.1577
0.0309,0.9201,-0.1577
0.0306,0.9467,-0.1557
0.0626,0.9743,-0.1555
0.0077,1.0044,-0.1328
0.0096,1.0049,-0.1333
0.0436,1.0027,-0.131
0.0455,1.0007,-0.1291
0.0761,1.0019,-0.1303
0.1653,1.1319,-0.1606
0.1946,1.4148,-0.2419
0.1946,1.4148,-0.2419
0.158,1.535,-0.2419
0.0891,1.6608,-0.2424
-0.0259,1.3694,-0.3448
-0.0662,1.0579,-0.4618
-0.0955,0.9186,-0.4618
-0.0951,0.6745,-0.4613
-0.0963,0.5609,-0.3702
-0.1195,0.7317,-0.3338
-0.119,0.9347,-0.4303
-0.119,1.0205,-0.466
-0.0919,1.1175,-0.4951
-0.0667,1.1439,-0.4633
-0.1256,0.9926,-0.4331
-0.1498,0.8094,-0.3961
-0.1505,0.7728,-0.3499
-0.1493,0.775,-0.3138
-0.1212,0.7738,-0.2693
-0.0944,0.7994,-0.2693
-0.0926,0.8265,-0.2701
-0.0926,0.8265,-0.2701
-0.0946,0.826,-0.2402
-0.0936,0.825,-0.2136
-0.0934,0.8519,-0.1885
-0.0946,0.8532,-0.1618
-0.0944,0.8529,-0.1328
-0.0636,0.8539,-0.1076
-0.0384,0.881,-0.1068
-0.0655,0.9105,-0.1071
-0.1205,0.9108,-0.1059
-0.1224,0.942,-0.1079
-0.1224,0.942,-0.1079
-0.1207,0.9403,-0.1061
-0.1209,0.9406,-0.08
-0.1209,0.9091,-0.08
-0.1214,0.9103,-0.0527
-0.1226,0.9091,-0.0514
-0.1214,0.9103,-0.0527
-0.1224,0.9685,-0.0536
-0.1461,1.0219,-0.0529
-0.1461,1.0219,-0.0529
-0.1468,1.1231,-0.0536
-0.2436,1.1766,-0.0527
-0.3171,1.255,-0.0529
-0.2216,1.4353,-0.0856
-0.0787,1.5343,-0.113
-0.0785,1.5042,-0.1482
-0.1102,1.3415,-0.2214
-0.109,1.118,-0.3008
-0.0816,0.9033,-0.326
-0.0176,0.7955,-0.3944
0.0218,0.7612,-0.4318
0.0721,0.8087,-0.4599
0.0732,0.9541,-0.4613
-0.0362,0.9963,-0.3893
-0.0362,0.9963,-0.3893
-0.0366,0.9968,-0.36
-0.0084,0.9222,-0.3311
-0.0077,0.8732,-0.2134
-0.0073,0.8472,-0.1875
-0.0079,0.8204,-0.1855
0.0246,0.8197,-0.1848
0.0595,0.8439,-0.1841
0.0593,0.8734,-0.2163
0.0604,0.8746,-0.2163
0.0597,0.873,-0.2146
0.0595,0.8732,-0.2148
0.0341,0.8742,-0.1813
0.0326,0.8732,-0.1804
0.0348,0.8734,-0.1806
0.0341,0.9035,-0.155
0.0346,0.903,-0.1545
0.0336,0.9362,-0.1196
0.0341,0.9357,-0.1191
0.0326,0.9347,-0.1181
0.0326,0.9347,-0.1181
0.0343,0.9355,-0.1188
0.0321,0.9352,-0.1186
0.0311,0.9362,-0.1196
0.0329,0.9345,-0.1179
0.0048,0.9634,-0.0514
0.0048,0.9653,-0.0534
0.0641,0.9621,-0.0502
0.0644,0.9618,-0.1203
0.0893,0.9613,-0.1198
0.0907,0.9623,-0.1208
