accx,accy,accz
0.0348,0.8705,0.0934
0.0619,0.9077,0.0937
0.0346,0.9692,0.0932
-0.025,0.9692,0.0921
-0.0242,0.9709,0.1337
-0.025,0.9692,0.1713
-0.025,0.9692,0.1713
-0.0235,0.9702,0.1703
-0.025,0.9692,0.1713
0.0055,0.996,0.1701
0.0392,0.9662,0.1978
0.0392,0.9662,0.2227
-0.0245,0.999,0.2542
-0.0951,1.0537,0.2524
-0.096,1.0523,0.2539
-0.0963,1.2623,0.2852
-0.1351,1.4283,0.2854
-0.1286,1.2704,0.0269
-0.0978,1.0205,-0.1076
-0.1249,0.8262,-0.0756
-0.1251,0.761,0.1368
-0.1871,0.7283,0.2532
-0.1877,0.8189,0.0225
-0.1535,0.9839,-0.1261
-0.0729,1.1421,-0.154
-0.0992,1.2026,-0.0924
-0.1622,1.1239,0.0548
-0.1628,0.9531,0.0802
-0.1324,0.9084,0.0811
-0.1317,0.8423,0.0795
-0.1314,0.8439,0.0797
-0.1324,0.8709,0.0811
-0.1564,0.969,0.0792
-0.1577,0.9678,0.0804
-0.1577,0.9678,0.0804
-0.1307,0.9678,0.0489
-0.1036,0.9675,0.0213
-0.1024,0.9438,0.0201
-0.1019,0.9169,0.0206
-0.1021,0.8879,0.0878
-0.1029,0.8234,0.1684
-0.1024,0.7664,0.1119
-0.1024,0.7664,0.1119
-0.127,0.741,0.11
-0.1286,0.74,0.111
-0.1286,0.7757,0.0846
-0.1279,0.8045,0.0853
-0.0435,0.8329,0.1545
-0.0149,0.8336,0.1838
-0.0147,0.8563,0.1818
-0.0145,0.8581,0.182
-0.0464,0.8839,0.271
-0.2274,0.9135,0.3077
-0.2737,0.9133,0.261
-0.2318,0.8844,0.1904
-0.1417,0.9201,0.1885
-0.1615,1.2184,0.1882
-0.2202,1.3268,0.1024
-0.0853,1.2792,-0.0478
0.1601,0.1601,0.1601
-0.0471,1.1751,0.226
-0.0413,1.1468,0.0878
-0.171,1.2387,0.0485
-0.0633,1.1025,0.0487
-0.004,1.0102,0.0494
-0.0303,0.7317,0.113
-0.0874,0.6782,0.1941
-0.1125,0.6787,0.192
-0.1137,0.7456,0.1933
-0.0765,0.8321,0.1288
0.0355,0.8302,0.0473
0.0956,0.7967,0.0462
0.0963,0.7959,0.076
0.0583,0.7974,0.1144
-0.01,0.8541,0.1867
-0.1864,0.9897,0.2165
-0.2229,1.0168,0.1808
-0.1491,1.0188,0.1789
-0.1491,1.0188,0.1789
-0.069,0.9823,0.2395
-0.2033,0.7427,0.4081
-0.1791,0.7859,0.4079
-0.0523,0.887,0.3651
0.1748,1.1472,0.3075
0.175,1.2529,0.3077
-0.4899,1.0938,0.3465
-0.3755,1.1744,-0.3732
-0.3755,1.1744,-0.3732
-0.1725,1.2802,-0.6835
-0.0171,1.4053,-0.5645
-0.086,1.5504,0.5393
-0.1212,1.2492,0.2234
-0.1212,1.2492,0.2234
-0.1535,1.0293,-0.283
-0.2187,0.8717,-0.2838
-0.1593,0.9054,0.4755
-0.1281,0.9059,0.475
-0.1281,0.9059,0.475
-0.1012,0.9059,0.1479
-0.1666,0.879,-0.0844
-0.2036,0.8507,0.0028
-0.1799,0.9215,0.1696
-0.1799,0.9215,0.1696
-0.1796,1.0044,0.1699
-0.1533,1.0342,0.1105
-0.1777,1.007,0.0557
-0.153,1.0068,0.056
-0.153,1.0068,0.056
-0.1528,1.0622,0.1156
-0.1528,1.0908,0.1412
-0.1484,1.0168,0.1701
-0.0883,0.9157,0.2241
-0.0883,0.9157,0.2241
-0.0885,0.8886,0.2263
-0.089,0.8891,0.2258
-0.0904,1.0468,0.2243
-0.1205,1.1656,0.226
-0.2136,1.2015,0.1985
-0.2502,1.202,0.1713
-0.2025,1.1458,0.0613
0.1052,0.879,-0.0858
0.026,0.8101,-0.0837
0.026,0.8101,-0.0837
-0.045,0.8637,0.0401
-0.0724,1.1158,0.0641
-0.0193,1.2059,0.0289
-0.0198,1.1773,-0.0434
-0.1014,1.0183,-0.0418
-0.1014,1.0183,-0.0418
-0.1298,0.9186,-0.0015
-0.0985,0.8873,0.065
-0.0992,0.8881,0.0912
-0.0992,0.9128,0.0912
-0.0997,0.9142,0.0907
-0.023,0.9133,0.0623
0.0116,0.9128,0.0371
-0.0135,0.8863,0.0364
-0.0152,0.8863,0.0371
-0.0391,0.8883,0.0352
-0.0633,0.8558,0.0355
-0.0653,0.8553,0.0653
-0.0343,0.856,0.099
-0.035,0.8837,0.1007
-0.0626,0.8423,0.1288
-0.0936,0.7246,0.1645
-0.0189,0.7992,0.1635
0.0141,0.9604,0.0856
-0.0582,1.027,0.1384
-0.0587,1,0.195
-0.0289,1.0014,0.2219
0.004,1.0002,0.2216
0.0106,0.9687,0.2532
-0.1447,0.8665,0.2871
-0.1293,0.9597,0.2563
0.0721,1.2675,0.1039
0.1049,1.362,0.0736
-0.0003,1.2748,0.0709
-0.281,1.0021,0.1217
-0.378,0.7989,-0.0727
-0.2297,1.0835,-0.186
-0.2055,1.4537,-0.0632
-0.2444,1.5944,0.1671
-0.3117,1.4295,0.1317
-0.312,1.2858,-0.0727
-0.1696,0.9667,-0.1515
-0.1036,0.9345,0.2556
-0.1051,0.9616,0.2961
-0.1046,0.9611,0.2102
-0.1405,0.9604,0.1384
-0.1673,0.89,0.087
-0.1388,0.8907,0.0629
-0.1109,0.8634,0.0623
-0.1109,0.8634,0.117
-0.1109,0.8634,0.1166
-0.1125,0.8649,0.143
-0.1403,0.8372,0.1445
-0.1649,0.838,0.2036
-0.1647,0.8378,0.2031
-0.1383,0.9222,0.2025
-0.1125,0.9242,0.2016
-0.1141,0.8812,0.2023
-0.1144,0.8556,0.2021
-0.1379,0.8546,0.2031
-0.1796,0.8944,0.2029
-0.2602,0.9699,0.2029
-0.1835,0.8593,0.3201
0.0099,0.8141,0.3184
0.0721,0.8954,0.2679
0.0721,0.8954,0.2679
-0.0208,0.8204,0.4454
-0.0228,0.7957,0.4452
-0.022,0.7974,0.3333
0.0443,0.7471,0.2507
-0.0391,0.9186,0.2478
0.0209,1.1239,0.1676
0.0781,1.2888,0.109
0.07,1.7095,-0.1181
-0.1234,1.9865,-0.53
-0.0802,1.8935,-0.5314
0.0231,1.4258,-0.2193
0.1008,1.0828,0.0504
0.103,0.9704,0.0836
-0.0669,1.0117,0.1393
-0.1376,1.1065,0.1711
-0.1376,1.1432,0.1449
-0.0785,1.0579,0.1068
-0.0785,0.9252,0.0739
-0.0492,0.794,0.0482
0.004,0.792,0.0501
0.0055,0.8201,0.077
0.0311,0.934,0.1039
-0.0028,0.9611,0.1017
-0.0282,0.8101,0.1281
-0.0533,0.7368,0.1273
-0.054,0.7391,0.1266
-0.056,0.7386,0.0795
-0.0284,0.7628,0.0802
-0.0294,0.7368,0.1889
-0.0955,0.7024,0.3406
-0.1283,0.6701,0.3421
0.0568,1.0279,0.0995
0.0876,1.1539,0.024
0.0612,1.2199,0.0247
0.026,1.1451,0.0776
-0.0023,0.9706,0.3897
-0.0687,0.8072,0.403
0.166,0.9516,0.237
0.166,0.9516,0.237
0.2065,0.979,0.2688
0.114,0.9787,0.271
-0.2839,1.1723,-0.0199
-0.58,1.2711,-0.1855
-0.6562,1.365,-0.2933
-0.5104,1.5783,-0.328
-0.1908,1.4954,-0.1789
-0.1,1.1048,-0.1499
-0.2964,1.0065,-0.1203
-0.3345,1.0461,0.0306
-0.2165,1.2748,0.2898
-0.1577,1.3122,0.2901
-0.1982,1.1634,-0.0008
-0.303,1.0579,-0.1927
-0.1381,0.9963,0.0174
-0.034,0.998,0.1662
-0.2187,0.802,0.2534
-0.3734,0.7654,0.1633
-0.3734,0.7654,0.1633
-0.2627,1.0044,0.1273
-0.0471,1.2345,-0.0565
0.0223,1.167,-0.1611
-0.0794,0.8556,-0.0008
-0.0794,0.8556,-0.0008
-0.0782,0.7149,0.0675
-0.0455,0.6829,0.1557
-0.1029,0.7808,0.1186
-0.133,0.8106,0.0836
-0.133,0.8106,0.0836
-0.1319,0.812,0.0306
-0.1007,0.8101,0.0306
-0.0736,0.7221,0.1676
-0.0736,0.7244,0.2372
-0.0736,0.7244,0.2372
-0.034,0.7495,0.1838
-0.0335,0.7769,0.1156
-0.3308,0.8907,0.2351
-0.4425,1.0337,0.4389
-0.4012,1.0586,0.4667
0.0048,0.931,0.4647
0.2432,0.6511,0.4198
-0.0794,0.7405,-0.0082
-0.5551,1.4625,0.2006
-0.5551,1.4625,0.2006
-0.3631,1.8304,0.2971
0.3082,1.7439,0.12
0.5471,1.0117,-0.5691
0.0392,1.0073,0.2835
-0.2436,1.1912,0.5248
-0.4738,1.4332,0.5244
-0.495,1.7505,0.3084
-0.0572,1.1524,-0.4177
-0.0179,0.8674,-0.1789
-0.0173,0.802,0.1728
-0.0678,0.8033,0.3057
-0.0403,0.9084,0.0225
0.0292,0.9071,0.0231
0.0262,0.8497,0.0695
-0.0054,0.8204,0.0695
-0.0054,0.8204,0.0695
-0.0049,0.8627,0.0675
0.0218,0.9489,0.0699
-0.045,0.9499,0.099
-0.0713,0.923,0.0995
-0.0718,0.9492,0.1247
-0.0706,0.9504,0.1559
-0.0716,0.9489,0.1557
-0.0091,0.9499,0.1547
0.0187,0.9743,0.1845
-0.0569,1.0039,0.182
-0.0865,1.0335,0.1818
-0.087,0.9963,0.1813
-0.0883,0.9699,0.1801
-0.0631,1.0864,0.2087
-0.0631,1.0864,0.2087
0.0458,1.3848,0.178
0.0463,1.3526,0.0776
-0.0926,1.2499,-0.1269
-0.2798,1.03,0.0944
-0.2798,1.03,0.0944
-0.2793,1.0295,0.3003
-0.1381,0.9926,0.2263
-0.1134,0.8534,-0.0462
-0.1137,0.7698,-0.2119
-0.1393,0.8153,-0.2132
-0.1383,1.0835,-0.1293
-0.1403,1.1488,-0.1289
-0.1076,1.1763,-0.1303
-0.1083,1.0322,-0.1286
-0.1337,0.9443,-0.0917
-0.1622,0.9154,-0.0089
-0.1628,0.891,0.015
-0.1628,0.891,0.0509
-0.1324,0.89,0.0518
-0.1342,0.8917,0.0501
-0.1344,0.9179,0.0499
-0.1337,0.9191,0.0506
-0.133,0.9184,0.0189
-0.1335,0.9467,0.0179
-0.1335,0.9467,0.0179
-0.1593,0.9457,0.0189
-0.1337,0.8935,0.0426
-0.1088,0.8285,0.079
-0.1107,0.8287,0.1053
-0.1107,0.7987,0.1051
-0.1109,0.7989,0.1049
-0.1351,0.7987,0.1051
-0.1356,0.7992,0.1046
-0.1097,0.8001,0.1037
-0.1107,0.8265,0.1051
-0.1088,0.8966,0.1046
-0.1437,0.9347,0.1354
-0.1691,1.0037,0.1955
-0.1156,0.975,0.2348
-0.0846,0.9186,0.2612
-0.056,0.8331,0.292
-0.1351,0.8316,0.2935
-0.2766,0.9985,0.2542
-0.2781,1.0279,0.2527
0.0011,0.956,0.4235
0.1059,0.9538,0.4256
0.22,1.0754,0.2659
0.177,1.2895,-0.2962
0.0632,1.3486,-0.4667
-0.0765,1.5269,0.0357
-0.1395,1.491,0.3033
-0.097,1.3517,0.3042
0.0326,1.1231,-0.0558
0.067,1.0165,-0.1442
-0.1403,1.167,0.117
-0.2092,1.1681,0.188
-0.0354,1.0586,0.0995
0.0372,0.8819,-0.0809
-0.0354,0.8131,-0.0118
-0.0692,0.8133,0.068
-0.0701,0.8407,0.1041
-0.0694,0.9,0.1049
-0.0452,0.9003,0.0438
-0.0459,0.7354,0.0424
-0.0459,0.7354,0.0424
-0.0704,0.7368,0.0767
-0.0711,0.7947,0.076
-0.0713,0.8269,0.1134
-0.0706,0.7444,0.1872
-0.0435,0.7009,0.1875
-0.0152,0.7676,0.1566
-0.0161,0.857,0.1557
0.0094,1.0512,0.1545
-0.1165,1.1067,0.2607
-0.1461,1.0102,0.2871
-0.0675,0.8775,0.2876
-0.068,0.8475,0.2871
-0.0682,1.0777,0.3147
-0.0682,1.0777,0.3147
-0.2085,1.1388,0.4079
-0.283,1.1679,0.4066
-0.1682,1.1693,-0.4105
-0.208,1.3144,-0.4867
-0.208,1.3144,-0.4867
-0.3455,1.7945,-0.1987
-0.4628,1.8616,0.117
-0.1161,1.1348,-0.2691
-0.1484,0.8423,-0.3663
-0.2062,0.764,-0.3656
-0.277,0.7645,0.0746
-0.2165,0.9215,0.6658
-0.0318,0.9638,0.3868
-0.0501,0.9047,-0.1364
-0.0501,0.9047,-0.1364
-0.1784,0.881,-0.2278
-0.2346,0.881,-0.1841
-0.1664,0.8812,0.2651
-0.198,0.9433,0.1926
-0.198,0.9433,0.1926
-0.2283,0.9736,0.109
-0.2585,1.0073,0.0482
-0.1468,1.0615,0.1384
-0.1207,1.0283,0.1379
-0.1217,1.0293,0.1368
-0.1498,1.0281,0.1381
-0.1784,1.0298,0.1364
-0.1491,1.0833,0.1613
-0.1254,1.0339,0.1279
-0.1254,1.0339,0.1279
-0.1261,0.9929,0.0921
-0.0955,0.9941,0.09
0.0136,0.9923,0.0916
0.0419,0.9653,-0.0518
0.0136,0.9667,-0.0534
0.0118,0.9685,-0.0551
0.0458,0.9413,-0.0529
0.0458,1.0666,-0.0888
-0.0122,1.0686,-0.0907
-0.0122,1.0686,-0.0907
-0.012,1.0403,-0.0611
-0.0396,1.0117,-0.0331
-0.068,1.0132,0.0291
-0.0667,0.9827,0.0303
-0.0662,0.9846,0.0284
-0.0112,0.9562,-0.0003
-0.013,0.8961,0.032
-0.0115,0.8321,0.0572
-0.0122,0.805,0.0841
-0.0115,0.8619,0.0829
-0.0115,0.8619,0.0829
-0.1056,0.7624,0.0841
-0.1044,0.6831,0.0829
-0.1051,0.6487,0.0821
-0.0484,0.731,0.0504
-0.0482,0.8211,0.0492
-0.0487,0.9291,0.0958
-0.0157,0.9279,0.1393
-0.0157,0.9279,0.1393
0.0407,0.9508,0.142
-0.0662,0.9904,0.1376
-0.1626,0.989,0.2784
0.0136,1.1532,0.2786
0.1117,1.1861,0.2461
0.1081,1.0579,0.2473
0.0246,0.934,0.3707
-0.0366,1.0535,0.3688
-0.068,1.1619,0.1449
-0.1952,1.0703,-0.0543
-0.2773,0.9494,-0.0917
-0.281,0.9113,-0.2197
-0.4542,1.6838,0.0634
-0.1556,1.4735,0.0638
-0.0802,1.2916,-0.2309
-0.0523,1.1165,-0.3576
-0.1044,0.8443,-0.264
-0.2383,0.9003,0.3473
-0.1205,1.0009,0.2461
-0.1205,1.0009,0.2461
-0.0941,0.9641,0.0958
-0.1552,0.8996,-0.1562
-0.2302,0.8724,-0.1555
-0.2605,0.8734,0.0122
-0.2318,0.8478,0.1566
-0.1969,0.847,0.1557
-0.1649,0.8798,0.1559
-0.1354,0.9044,0.0284
-0.1073,0.8705,-0.0055
-0.0804,0.7918,-0.0055
-0.0804,0.7918,-0.0055
-0.1322,0.8204,0.076
-0.1708,0.9028,0.2576
-0.0626,0.902,0.2583
-0.0626,0.902,0.2583
-0.1747,1.0835,0.219
-0.2016,1.1854,0.219
-0.0699,1.0447,0.3469
0.1037,0.7918,0.3937
0.1347,0.6626,0.393
0.0898,0.6636,0.263
-0.3126,1.0586,0.0464
-0.452,1.2418,0.227
-0.3015,1.2448,0.5167
0.2635,1.0444,0.2982
0.2635,1.0444,0.2982
0.2063,1.1304,-0.4024
0.0106,1.1304,-0.5735
-0.0926,1.2851,-0.025
0.144,1.5643,-0.1056
0.144,1.5643,-0.1056
0.1821,1.0762,-0.3793
0.0949,0.887,-0.381
-0.056,0.7129,-0.162
-0.0531,0.9669,0.2236
-0.0531,0.9669,0.2236
-0.0266,1.0889,0.0369
-0.0271,0.9816,0.0115
-0.0264,0.8863,0.0122
